{
  "resourceType": "Observation",
  "id": "obs015-ph",
  "status": "final",
  "contained": [
    {
      "resourceType": "Practitioner",
      "id": "dmorgan"
    },
    {
      "resourceType": "Organization",
      "id": "wlab"
    }
  ],
  "code": {
    "coding": [
      {
        "system": "http://loinc.org",
        "code": "2744-1",
        "display": "pH of Arterial blood"
      }
    ]
  },
  "subject": {
    "reference": "Patient/pat015"
  },
  "issued": "2020-06-15T15:30:10+01:00",
  "valueQuantity": {
    "value": 7.33,
    "unit": "pH",
    "system": "http://unitsofmeasure.org",
    "code": "pH"
  },
  "encounter": {
    "reference": "Encounter/pat015-rad-encounter"
  },
  "performer": [
    {
      "reference": "#dmorgan",
      "display": "Dexter Morgan",
      "type": "Practitioner"
    },
    {
      "reference": "#wlab",
      "display": "Gulf Coast Lab",
      "type": "Organization"
    }
  ]
}