{
	"resourceType": "Bundle",
	"id": "e8419969b3383e41a806a1b0e56bf075",
	"meta": {
		"lastUpdated": "2021-02-22T23:40:19.8423351+00:00"
	},
	"entry": [
		{
			"fullUrl": "https://dvtsmartonfhir.azurehealthcareapis.com/Patient/pat-9125b4fe",
			"resource": {
				"resourceType": "Patient",
				"id": "pat-9125b4fe",
				"meta": {
					"versionId": "1",
					"lastUpdated": "2020-11-05T19:01:01.444+00:00",
					"tag": [
						{
							"system": "sym-test",
							"code": "sym-test"
						}
					]
				},
				"name": [
					{
						"use": "official",
						"text": "Heather Morgan",
						"family": "Morgan",
						"given": [
							"Heather"
						]
					}
				],
				"gender": "female",
				"birthDate": "1968-05-07",
				"identifier": [
					{
						"system": "http://hl7.org/fhir/sid/us-medicare",
						"value": "35678900002JS"
					}
				]
			}
		},
		{
			"fullUrl": "https://dvtsmartonfhir.azurehealthcareapis.com/Condition/con-70506c2f-ba7c-4279-8fa1-c6148e806f99",
			"resource": {
				"resourceType": "Condition",
				"id": "con-70506c2f-ba7c-4279-8fa1-c6148e806f99",
				"meta": {
					"versionId": "1",
					"lastUpdated": "2020-11-05T19:01:02.611+00:00",
					"tag": [
						{
							"system": "sym-test",
							"code": "sym-test"
						}
					]
				},
				"clinicalStatus": {
					"coding": [
						{
							"code": "active"
						}
					]
				},
				"category": [
					{
						"coding": [
							{
								"code": "problem-list-item"
							}
						]
					}
				],
				"code": {
					"coding": [
						{
							"system": "http://snomed.info/sct",
							"code": "409609008",
							"display": "LLL infiltrate"
						}
					]
				},
				"subject": {
					"reference": "Patient/pat-9125b4fe"
				},
				"onsetDateTime": "2020-11-05T18:37:23.234Z"
			},
			"search": {
				"mode": "match"
			}
		},
		{
			"fullUrl": "https://dvtsmartonfhir.azurehealthcareapis.com/ServiceRequest/sevq-94913950-0532-4637-8510-0b77e039e666",
			"resource": {
				"resourceType": "ServiceRequest",
				"id": "sevq-94913950-0532-4637-8510-0b77e039e666",
				"meta": {
					"versionId": "1",
					"lastUpdated": "2020-11-05T19:01:07.965+00:00",
					"tag": [
						{
							"system": "sym-test",
							"code": "sym-test"
						}
					]
				},
				"text": {
					"status": "generated"
				},
				"status": "active",
				"intent": "original-order",
				"code": {
					"coding": [
						{
							"system": "http://www.ama-assn.org/go/cpt",
							"code": "94640",
							"display": "Treatment of acute airway obstruction with inhaled medication"
						}
					],
					"text": "treatment of acute airway obstruction with inhaled medication"
				},
				"subject": {
					"reference": "Patient/pat-9125b4fe"
				},
				"insurance": [
					{
						"reference": "Coverage/mcg-cov01"
					}
				],
				"occurrenceDateTime": "2020-10-30T21:21:27.556Z",
				"requester": {
					"reference": "Practitioner/0aa5b4e4-1ce8-4aa6-bdd9-09ca4918b8b5"
				},
				"performer": [
					{
						"reference": "Practitioner/pra-338f25ca-8726-42aa-a013-bd12543a1308"
					}
				],
				"locationReference": [
					{
						"reference": "Location/loc-4579558e-ed5f-404e-88b5-5da7d5e22a95"
					}
				],
				"reasonReference": [
					{
						"reference": "Condition/con-70506c2f-ba7c-4279-8fa1-c6148e806f99"
					}
				]
			},
			"search": {
				"mode": "match"
			}
		},
		{
			"fullUrl": "https://dvtsmartonfhir.azurehealthcareapis.com/Location/loc-4579558e-ed5f-404e-88b5-5da7d5e22a95",
			"resource": {
				"resourceType": "Location",
				"id": "loc-4579558e-ed5f-404e-88b5-5da7d5e22a95",
				"meta": {
					"versionId": "1",
					"lastUpdated": "2020-11-05T19:01:04.775+00:00",
					"tag": [
						{
							"system": "sym-test",
							"code": "sym-test"
						}
					]
				},
				"text": {
					"status": "generated",
					"div": "<div xmlns=\"http://www.w3.org/1999/xhtml\">Burgers UMC, South Wing, second floor, Neuro Radiology Operation Room 1</div>"
				},
				"identifier": [
					{
						"value": "B1-S.F2.1.00"
					}
				],
				"status": "suspended",
				"operationalStatus": {
					"system": "http://terminology.hl7.org/CodeSystem/v2-0116",
					"code": "H",
					"display": "Housekeeping"
				},
				"name": "Waterbury Hospital",
				"description": "Old South Wing, Neuro Radiology Operation Room 1 on second floor",
				"mode": "instance",
				"type": [
					{
						"coding": [
							{
								"system": "http://terminology.hl7.org/CodeSystem/v3-RoleCode",
								"code": "RNEU",
								"display": "Neuroradiology unit"
							}
						]
					}
				],
				"telecom": [
					{
						"system": "phone",
						"value": "2329"
					}
				],
				"address": {
					"line": [
						"773  Wiseman Street"
					],
					"city": "Knoxville",
					"state": "Tennessee",
					"postalCode": "37909",
					"country": "USA"
				},
				"physicalType": {
					"coding": [
						{
							"system": "http://terminology.hl7.org/CodeSystem/location-physical-type",
							"code": "ro",
							"display": "Room"
						}
					]
				},
				"managingOrganization": {
					"reference": "Organization/7d547b1e-fa70-4828-afba-856c6074d3c3"
				}
			}
		},
		{
			"fullUrl": "https://dvtsmartonfhir.azurehealthcareapis.com/Practitioner/pra-338f25ca-8726-42aa-a013-bd12543a1308",
			"resource": {
				"resourceType": "Practitioner",
				"id": "pra-338f25ca-8726-42aa-a013-bd12543a1308",
				"meta": {
					"versionId": "1",
					"lastUpdated": "2020-11-05T19:01:05.841+00:00",
					"tag": [
						{
							"system": "sym-test",
							"code": "sym-test"
						}
					]
				},
				"text": {
					"status": "generated"
				},
				"identifier": [
					{
						"system": "http://hl7.org.fhir/sid/us-npi",
						"value": "8781797669"
					},
					{
						"system": "http://www.acme.org/practitioners",
						"value": "25456"
					}
				],
				"active": true,
				"name": [
					{
						"family": "Meza",
						"given": [
							"Arnold"
						],
						"prefix": [
							"Dr"
						]
					}
				],
				"address": [
					{
						"use": "home",
						"line": [
							"4435 Bird Spring Lane"
						],
						"city": "Houston",
						"state": "Texas",
						"postalCode": "77077"
					}
				],
				"qualification": [
					{
						"identifier": [
							{
								"system": "http://example.org/UniversityIdentifier",
								"value": "12345"
							}
						],
						"code": {
							"coding": [
								{
									"system": "http://terminology.hl7.org/CodeSystem/v2-0360/2.7",
									"code": "BS",
									"display": "Bachelor of Science"
								}
							],
							"text": "Bachelor of Science"
						},
						"period": {
							"start": "1995"
						},
						"issuer": {
							"display": "Example University"
						}
					}
				]
			}
		},
		{
			"fullUrl": "https://dvtsmartonfhir.azurehealthcareapis.com/Observation/ed643dce-4e8e-46e9-aad3-fe46dfe5112d",
			"resource": {
				"resourceType": "Observation",
				"id": "ed643dce-4e8e-46e9-aad3-fe46dfe5112d",
				"meta": {
					"versionId": "1",
					"lastUpdated": "2020-11-05T19:01:09.068+00:00",
					"tag": [
						{
							"system": "sym-test",
							"code": "sym-test"
						}
					]
				},
				"status": "final",
				"category": [
					{
						"coding": [
							{
								"system": "http://hl7.org/fhir/observation-category",
								"code": "laboratory",
								"display": "Laboratory"
							}
						]
					}
				],
				"code": {
					"coding": [
						{
							"system": "http://loinc.org",
							"code": "2339-0",
							"display": "Glucose"
						}
					]
				},
				"subject": {
					"reference": "Patient/pat-9125b4fe"
				},
				"effectiveDateTime": "2020-11-05T18:37:23.234Z",
				"valueQuantity": {
					"value": 161,
					"unit": "mg/dL",
					"system": "http://unitsofmeasure.org"
				}
			},
			"search": {
				"mode": "match"
			}
		},
		{
			"fullUrl": "https://dvtsmartonfhir.azurehealthcareapis.com/Observation/ab9f3cc2-073d-4a12-a188-270cfb47db6b",
			"resource": {
				"resourceType": "Observation",
				"id": "ab9f3cc2-073d-4a12-a188-270cfb47db6b",
				"meta": {
					"versionId": "1",
					"lastUpdated": "2020-11-05T19:01:10.129+00:00",
					"tag": [
						{
							"system": "sym-test",
							"code": "sym-test"
						}
					]
				},
				"status": "final",
				"category": [
					{
						"coding": [
							{
								"system": "http://hl7.org/fhir/observation-category",
								"code": "laboratory",
								"display": "Laboratory"
							}
						]
					}
				],
				"code": {
					"coding": [
						{
							"system": "http://loinc.org",
							"code": "14627-4",
							"display": "CO2(total)"
						}
					]
				},
				"subject": {
					"reference": "Patient/pat-9125b4fe"
				},
				"effectiveDateTime": "2020-11-05T18:37:23.234Z",
				"valueQuantity": {
					"value": 32,
					"unit": "mmol/L",
					"system": "http://unitsofmeasure.org"
				}
			},
			"search": {
				"mode": "match"
			}
		},
		{
			"fullUrl": "https://dvtsmartonfhir.azurehealthcareapis.com/Observation/obs-068c8ed8-0319-4637-9088-00fef096072b",
			"resource": {
				"resourceType": "Observation",
				"id": "obs-068c8ed8-0319-4637-9088-00fef096072b",
				"meta": {
					"versionId": "1",
					"lastUpdated": "2020-11-05T19:01:11.204+00:00",
					"tag": [
						{
							"system": "sym-test",
							"code": "sym-test"
						}
					]
				},
				"status": "final",
				"category": [
					{
						"coding": [
							{
								"system": "http://hl7.org/fhir/observation-category",
								"code": "laboratory",
								"display": "Laboratory"
							}
						]
					}
				],
				"code": {
					"coding": [
						{
							"system": "http://loinc.org",
							"code": "2021-4",
							"display": "Carbon dioxide [Partial pressure] in Venous blood"
						}
					]
				},
				"subject": {
					"reference": "Patient/pat-9125b4fe"
				},
				"effectiveDateTime": "2020-11-05T18:37:23.234Z",
				"valueQuantity": {
					"value": 52,
					"unit": "mmHg",
					"system": "http://unitsofmeasure.org"
				}
			},
			"search": {
				"mode": "match"
			}
		},
		{
			"fullUrl": "https://dvtsmartonfhir.azurehealthcareapis.com/Observation/obs-03eb582b-362a-4196-9bd6-133267bbc13d",
			"resource": {
				"resourceType": "Observation",
				"id": "obs-03eb582b-362a-4196-9bd6-133267bbc13d",
				"meta": {
					"versionId": "1",
					"lastUpdated": "2020-11-05T19:01:12.29+00:00",
					"tag": [
						{
							"system": "sym-test",
							"code": "sym-test"
						}
					]
				},
				"status": "final",
				"category": [
					{
						"coding": [
							{
								"system": "http://hl7.org/fhir/observation-category",
								"code": "laboratory",
								"display": "Laboratory"
							}
						]
					}
				],
				"code": {
					"coding": [
						{
							"system": "http://loinc.org",
							"code": "6299-2",
							"display": "Urea nitrogen [Mass/volume] in Blood"
						}
					]
				},
				"subject": {
					"reference": "Patient/pat-9125b4fe"
				},
				"effectiveDateTime": "2020-11-05T18:37:23.234Z",
				"valueQuantity": {
					"value": 20,
					"unit": "mg/dL",
					"system": "http://unitsofmeasure.org"
				}
			},
			"search": {
				"mode": "match"
			}
		},
		{
			"fullUrl": "https://dvtsmartonfhir.azurehealthcareapis.com/Observation/ac92c9a3-fa18-4ffa-86f1-088bbe004287",
			"resource": {
				"resourceType": "Observation",
				"id": "ac92c9a3-fa18-4ffa-86f1-088bbe004287",
				"meta": {
					"versionId": "1",
					"lastUpdated": "2020-11-05T19:01:13.343+00:00",
					"tag": [
						{
							"system": "sym-test",
							"code": "sym-test"
						}
					]
				},
				"status": "final",
				"category": [
					{
						"coding": [
							{
								"system": "http://hl7.org/fhir/observation-category",
								"code": "laboratory",
								"display": "Laboratory"
							}
						]
					}
				],
				"code": {
					"coding": [
						{
							"system": "http://loinc.org",
							"code": "6298-4",
							"display": "Potassium [Moles/volume] in Blood"
						}
					]
				},
				"subject": {
					"reference": "Patient/pat-9125b4fe"
				},
				"effectiveDateTime": "2020-11-05T18:37:23.234Z",
				"valueQuantity": {
					"value": 3.9,
					"unit": "mmol/L",
					"system": "http://unitsofmeasure.org"
				}
			},
			"search": {
				"mode": "match"
			}
		},
		{
			"fullUrl": "https://dvtsmartonfhir.azurehealthcareapis.com/Observation/obs-4c23c42f-c22e-4c46-abd7-b2ce1370ecfd",
			"resource": {
				"resourceType": "Observation",
				"id": "obs-4c23c42f-c22e-4c46-abd7-b2ce1370ecfd",
				"meta": {
					"versionId": "1",
					"lastUpdated": "2020-11-05T19:01:14.429+00:00",
					"tag": [
						{
							"system": "sym-test",
							"code": "sym-test"
						}
					]
				},
				"status": "final",
				"category": [
					{
						"coding": [
							{
								"system": "http://hl7.org/fhir/observation-category",
								"code": "laboratory",
								"display": "Laboratory"
							}
						]
					}
				],
				"code": {
					"coding": [
						{
							"system": "http://loinc.org",
							"code": "2951-2",
							"display": "Sodium [Moles/volume] in Serum or Plasma"
						}
					]
				},
				"subject": {
					"reference": "Patient/pat-9125b4fe"
				},
				"effectiveDateTime": "2020-11-05T18:37:23.234Z",
				"valueQuantity": {
					"value": 134,
					"unit": "mmol/L",
					"system": "http://unitsofmeasure.org"
				}
			},
			"search": {
				"mode": "match"
			}
		},
		{
			"fullUrl": "https://dvtsmartonfhir.azurehealthcareapis.com/Observation/e4f661e3-358e-4167-aa35-e59e6f0cc472",
			"resource": {
				"resourceType": "Observation",
				"id": "e4f661e3-358e-4167-aa35-e59e6f0cc472",
				"meta": {
					"versionId": "1",
					"lastUpdated": "2020-11-05T19:01:15.477+00:00",
					"tag": [
						{
							"system": "sym-test",
							"code": "sym-test"
						}
					]
				},
				"status": "final",
				"category": [
					{
						"coding": [
							{
								"system": "http://hl7.org/fhir/observation-category",
								"code": "laboratory",
								"display": "Laboratory"
							}
						]
					}
				],
				"code": {
					"coding": [
						{
							"system": "http://loinc.org",
							"code": "2746-6",
							"display": "Venous pH"
						}
					]
				},
				"subject": {
					"reference": "Patient/pat-9125b4fe"
				},
				"effectiveDateTime": "2020-11-05T16:39:03.234Z",
				"valueQuantity": {
					"value": 7.38,
					"unit": "mEq/L",
					"system": "http://unitsofmeasure.org"
				}
			},
			"search": {
				"mode": "match"
			}
		},
		{
			"fullUrl": "https://dvtsmartonfhir.azurehealthcareapis.com/Observation/d63dc9d7-1bff-4580-a309-ade7389d8b02",
			"resource": {
				"resourceType": "Observation",
				"id": "d63dc9d7-1bff-4580-a309-ade7389d8b02",
				"meta": {
					"versionId": "1",
					"lastUpdated": "2020-11-05T19:01:16.548+00:00",
					"tag": [
						{
							"system": "sym-test",
							"code": "sym-test"
						}
					]
				},
				"status": "final",
				"category": [
					{
						"coding": [
							{
								"system": "http://hl7.org/fhir/observation-category",
								"code": "laboratory",
								"display": "Laboratory"
							}
						]
					}
				],
				"code": {
					"coding": [
						{
							"system": "http://loinc.org",
							"code": "10466-1",
							"display": "Anion Gap"
						}
					]
				},
				"subject": {
					"reference": "Patient/pat-9125b4fe"
				},
				"effectiveDateTime": "2020-11-05T16:39:03.234Z",
				"valueQuantity": {
					"value": 10,
					"unit": "mEq/L",
					"system": "http://unitsofmeasure.org"
				}
			},
			"search": {
				"mode": "match"
			}
		},
		{
			"fullUrl": "https://dvtsmartonfhir.azurehealthcareapis.com/Coverage/mcg-cov01",
			"resource": {
				"resourceType": "Coverage",
				"id": "mcg-cov01",
				"beneficiary": {
				  "reference": "Patient/pat-9125b4fe"
				},
				"status": "active",
				"subscriberId": "64A3D58WH01",
				"class": [
				  {
					"type": {
					  "system": "http://hl7.org/fhir/coverage-class",
					  "code": "plan"
					},
					"value": "Medicare Part A"
				  }
				],
				"payor": [
				  {
					"reference": "Organization/mcg-org589783"
				  }
				]
			  }
		},
		{
			"fullUrl": "https://dvtsmartonfhir.azurehealthcareapis.com/Organization/mcg-org589783",
			"resource": {
				"resourceType": "Organization",
				"id": "mcg-org589783",
				"meta": {
					"versionId": "16",
					"lastUpdated": "2015-08-19T17:27:03Z"
				},
				"text": {
					"status": "generated",
					"div": "<div xmlns=\"http://www.w3.org/1999/xhtml\"><p><b>Organization</b></p><p><b>Name</b>: MEDICARE</p><p><b>Status</b>: Active</p></div>"
				},
				"identifier": [
					{
						"use": "official",
						"type": {
							"coding": [
								{
									"system": "http://terminology.hl7.org/CodeSystem/v2-0203",
									"code": "NIIP",
									"display": "Payor ID"
								}
							],
							"text": "Payor ID"
						},
						"system": "http://identifiers.mettles.com/fhir/sid/us-insurer-id",
						"value": "mcg-df812-1fdd-3adf-b1d5-32cc8bd07ebb"
					},
					{
						"use": "official",
						"type": {
							"coding": [
								{
									"system": "http://terminology.hl7.org/CodeSystem/v2-0203",
									"code": "NIIP",
									"display": "Payor Code"
								}
							],
							"text": "Payor Code"
						},
						"system": "http://identifiers.mettles.com/fhir/sid/us-insurer-code",
						"value": "111222880"
					}
				],
				"active": true,
				"type": [
					{
						"coding": [
							{
								"system": "http://terminology.hl7.org/CodeSystem/organization-type",
								"code": "ins",
								"display": "Insurance Company"
							}
						],
						"text": "Ins Co"
					}
				],
				"name": "Centers for Medicare and Medicaid Services",
				"telecom": [
					{
						"extension": [
							{
								"valueCode": "unknown",
								"url": "http://hl7.org/fhir/StructureDefinition/data-absent-reason"
							}
						]
					}
				],
				"address": [
					{
						"extension": [
							{
								"valueCode": "unknown",
								"url": "http://hl7.org/fhir/StructureDefinition/data-absent-reason"
							}
						]
					}
				]
			}
		}
	]
}