{
  "resourceType": "Bundle",
  "entry": [
    {
      "resource": {
        "resourceType": "Claim",
        "id": "Claim-28737",
        "identifier": [
          {
            "system": "http://identifiers.mettles.com/prior_auth",
            "value": "A069Q50NBTTJPLBK"
          }
        ],
        "status": "active",
        "use": "preauthorization",
        "type": {
          "coding": [
            {
              "system": "http://terminology.hl7.org/CodeSystem/claim-type",
              "code": "professional",
              "display": "Professional"
            }
          ]
        },
        "patient": {
          "reference": "Patient/patient-8"
        },
        "created": "2020-07-29T14:57:18Z",
        "provider": {
          "reference": "Organization/organization-1"
        },
        "insurer": {
          "reference": "Organization/organization-4"
        },
        "priority": {
          "coding": [
            {
              "code": "normal"
            }
          ]
        },
        "supportingInfo": [
          {
            "sequence": 1,
            "category": {
              "coding": [
                {
                  "system": "http://terminology.hl7.org/CodeSystem/claiminformationcategory",
                  "code": "material"
                }
              ]
            },
            "valueReference": {
              "reference": "QuestionnaireResponse/response1"
            }
          },
          {
            "sequence": 2,
            "category": {
              "coding": [
                {
                  "system": "http://hl7.org/fhir/us/davinci-pas/CodeSystem/PASSupportingInfoType",
                  "code": "patientEvent"
                }
              ]
            },
            "timingPeriod": {
              "start": "2020-07-14T12:45:29",
              "end": "2020-07-21T14:45:50"
            }
          }
        ],
        "item": [
          {
            "sequence": 1,
            "procedureSequence": [
              1,
              2
            ],
            "diagnosisSequence": [
              1
            ],
            "careTeamSequence": [
              1,
              2
            ],
            "locationCodeableConcept": {
              "coding": [
                {
                  "system": "11",
                  "code": "B",
                  "display": "Patient's Residence"
                }
              ]
            },
            "extension": [
              {
                "url": "http://hl7.org/fhir/us/davinci-pas/StructureDefinition/extension-requestedService",
                "valueReference": {
                  "reference": "ServiceRequest/servicerequest-4"
                }
              }
            ],
            "productOrService": {
              "coding": [
                {
                  "system": "http://www.ama-assn.org/go/cpt",
                  "code": "93350",
                  "display": "Echocardiography, transthoracic, real-time with image documentation (2D), includes M-mode recording, when performed, during rest and cardiovascular stress test using treadmill, bicycle exercise and/or pharmacologically induced stress, with interpretation and report"
                }
              ],
              "text": "Echocardiography, transthoracic, real-time with image documentation (2D), includes M-mode recording, when performed, during rest and cardiovascular stress test using treadmill, bicycle exercise and/or pharmacologically induced stress, with interpretation and report"
            },
            "unitPrice": {
              "value": 123
            }
          }
        ],
        "careTeam": [
          {
            "sequence": 1,
            "provider": {
              "reference": "Organization/organization-1"
            },
            "role": {
              "coding": [
                {
                  "system": "http://terminology.hl7.org/CodeSystem/claimcareteamrole",
                  "code": "primary"
                }
              ]
            }
          },
          {
            "sequence": 2,
            "provider": {
              "reference": "Practitioner/practitioner-1"
            },
            "role": {
              "coding": [
                {
                  "system": "http://terminology.hl7.org/CodeSystem/claimcareteamrole",
                  "code": "primary"
                }
              ]
            }
          }
        ],
        "diagnosis": [
          {
            "sequence": 1,
            "diagnosisReference": {
              "reference": "Condition/condition-4"
            }
          }
        ],
        "procedure": [
          {
            "sequence": 1,
            "procedureReference": {
              "reference": "Procedure/procedure-2"
            }
          },
          {
            "sequence": 2,
            "procedureReference": {
              "reference": "Procedure/procedure-2"
            }
          }
        ],
        "insurance": [
          {
            "sequence": 1,
            "focal": true,
            "coverage": {
              "reference": "Coverage/coverage-5"
            }
          }
        ],
        "referral": {
          "reference": "ServiceRequest/servicerequest-4"
        }
      },
      "fullUrl": "https://pd.mettles.com/ehrfhir/Claim/Claim-28737"
    },
    {
      "fullUrl": "https://pd.mettles.com/ehrfhir/Patient/patient-8",
      "resource": {
        "resourceType": "Patient",
        "id": "patient-8",
        "text": {
          "status": "generated",
          "div": "<div xmlns=\"http://www.w3.org/1999/xhtml\"><div class=\"hapiHeaderText\">James <b>TERRY </b></div><table class=\"hapiPropertyTable\"><tbody><tr><td>Identifier</td><td>2398434481</td></tr><tr><td>Address</td><td><span>483 Big Elm </span><br/><span>Kansas City </span><span>Missouri </span><span>United States </span></td></tr><tr><td>Date of birth</td><td><span>20 May 1969</span></td></tr></tbody></table></div>"
        },
        "identifier": [
          {
            "use": "official",
            "system": "http://hl7.org/fhir/sid/us-medicare",
            "value": "2398434481"
          }
        ],
        "active": true,
        "name": [
          {
            "use": "official",
            "family": "Terry",
            "given": [
              "James"
            ]
          }
        ],
        "telecom": [
          {
            "system": "phone",
            "value": "816-806-8889"
          },
          {
            "system": "email",
            "value": "james@email.com"
          }
        ],
        "gender": "male",
        "birthDate": "1969-05-20",
        "address": [
          {
            "line": [
              "483  Big Elm"
            ],
            "city": "Kansas City",
            "state": "Missouri",
            "postalCode": "64105",
            "country": "United States"
          }
        ],
        "maritalStatus": {
          "coding": [
            {
              "system": "http://terminology.hl7.org/CodeSystem/v3-MaritalStatus",
              "code": "U",
              "display": "unmarried"
            }
          ],
          "text": "unmarried"
        },
        "generalPractitioner": [
          {
            "reference": "Practitioner/practitioner-1"
          }
        ],
        "managingOrganization": {
          "reference": "Organization/organization-1"
        }
      }
    },
    {
      "fullUrl": "https://pd.mettles.com/ehrfhir/Coverage/coverage-5",
      "resource": {
        "resourceType": "Coverage",
        "id": "coverage-5",
        "status": "active",
        "type": {
          "coding": [
            {
              "code": "12345",
              "display": "Primary"
            }
          ],
          "text": "Primary"
        },
        "policyHolder": {
          "reference": "Patient/patient-8"
        },
        "subscriber": {
          "reference": "Patient/patient-8"
        },
        "beneficiary": {
          "reference": "Patient/patient-8"
        },
        "relationship": {
          "coding": [
            {
              "system": "http://terminology.hl7.org/CodeSystem/subscriber-relationship",
              "code": "self",
              "display": "Self"
            }
          ],
          "text": "Self"
        },
        "period": {
          "start": "2019-01-01T17:17:11",
          "end": "2021-01-01T08:28:45"
        },
        "payor": [
          {
            "reference": "Organization/organization-4"
          }
        ]
      }
    },
    {
      "fullUrl": "https://pd.mettles.com/ehrfhir/Organization/organization-4",
      "resource": {
        "resourceType": "Organization",
        "id": "organization-4",
        "identifier": [
          {
            "use": "official",
            "type": {
              "coding": [
                {
                  "system": "http://terminology.hl7.org/CodeSystem/v2-0203",
                  "code": "NIIP",
                  "display": "Payor ID"
                }
              ],
              "text": "Payor ID"
            },
            "system": "http://identifiers.mettles.com/fhir/sid/us-insurer-id",
            "value": "18003"
          },
          {
            "use": "official",
            "type": {
              "coding": [
                {
                  "system": "http://terminology.hl7.org/CodeSystem/v2-0203",
                  "code": "NIIP",
                  "display": "Payor Code"
                }
              ],
              "text": "Payor Code"
            },
            "system": "http://identifiers.mettles.com/fhir/sid/us-insurer-code",
            "value": "111222889"
          },
          {
            "use": "official",
            "type": {
              "text": "Insurer NPI"
            },
            "system": "http://hl7.org/fhir/sid/us-npi",
            "value": "5698477634"
          }
        ],
        "active": true,
        "type": [
          {
            "coding": [
              {
                "system": "http://terminology.hl7.org/CodeSystem/organization-type",
                "code": "pay",
                "display": "Payer"
              }
            ],
            "text": "Payer"
          }
        ],
        "name": "United Health Care",
        "telecom": [
          {
            "system": "phone",
            "value": "4354647483"
          }
        ],
        "address": [
          {
            "line": [
              "UHC street"
            ],
            "city": "San Jose",
            "state": "California",
            "postalCode": "95129",
            "country": "United States"
          }
        ]
      }
    },
    {
      "fullUrl": "https://pd.mettles.com/ehrfhir/Practitioner/practitioner-1",
      "resource": {
        "resourceType": "Practitioner",
        "id": "practitioner-1",
        "identifier": [
          {
            "use": "official",
            "type": {
              "coding": [
                {
                  "system": "http://terminology.hl7.org/CodeSystem/v2-0203",
                  "code": "NPI",
                  "display": "National Provider ID"
                }
              ],
              "text": "National Provider ID"
            },
            "system": "http://hl7.org/fhir/sid/us-npi",
            "value": "1033389622"
          }
        ],
        "active": true,
        "name": [
          {
            "family": "Kershner",
            "given": [
              "Stuart"
            ]
          },
          {
            "use": "official",
            "family": "Stuart",
            "given": [
              "Kershner"
            ]
          }
        ],
        "telecom": [
          {
            "system": "phone",
            "value": "9546143225"
          }
        ],
        "address": [
          {
            "line": [
              "2350 W EL CAMINO REAL 2ND FLOOR"
            ],
            "city": "Mountain View",
            "state": "California",
            "postalCode": "93124",
            "country": "United States"
          },
          {
            "use": "work",
            "line": [
              "2350 W EL CAMINO REAL 2ND FLOOR"
            ],
            "city": "Mountain View",
            "state": "California",
            "postalCode": "93124",
            "country": "US"
          }
        ],
        "gender": "male",
        "birthDate": "1974-12-25"
      }
    },
    {
      "fullUrl": "https://pd.mettles.com/ehrfhir/Encounter/encounter-4",
      "resource": {
        "resourceType": "Encounter",
        "id": "encounter-4",
        "status": "in-progress",
        "class": {
          "system": "http://terminology.hl7.org/CodeSystem/v3-ActCode",
          "version": "1.0",
          "code": "PRENC",
          "display": "Pre-Admission",
          "userSelected": true
        },
        "subject": {
          "reference": "Patient/patient-8"
        },
        "participant": [
          {
            "type": [
              {
                "coding": [
                  {
                    "system": "http://terminology.hl7.org/CodeSystem/v3-ParticipationType",
                    "code": "PPRF",
                    "display": "Primary Performer"
                  }
                ],
                "text": "Primary Performer"
              }
            ],
            "individual": {
              "reference": "Practitioner/practitioner-1"
            }
          }
        ],
        "period": {
          "start": "2020-07-14T12:45:29",
          "end": "2020-07-21T14:45:50"
        },
        "diagnosis": [
          {
            "condition": {
              "reference": "Condition/condition-4"
            },
            "rank": 1
          },
          {
            "condition": {
              "reference": "Condition/condition-5"
            }
          },
          {
            "condition": {
              "reference": "Condition/condition-6"
            }
          },
          {
            "condition": {
              "reference": "Condition/condition-7"
            }
          },
          {
            "condition": {
              "reference": "Condition/condition-8"
            }
          },
          {
            "condition": {
              "reference": "Condition/condition-9"
            }
          },
          {
            "condition": {
              "reference": "Condition/condition-10"
            },
            "rank": 2
          }
        ],
        "serviceProvider": {
          "reference": "Organization/organization-1"
        }
      }
    },
    {
      "fullUrl": "https://pd.mettles.com/ehrfhir/Organization/organization-1",
      "resource": {
        "resourceType": "Organization",
        "id": "organization-1",
        "identifier": [
          {
            "use": "official",
            "type": {
              "coding": [
                {
                  "system": "http://terminology.hl7.org/CodeSystem/v2-0203",
                  "code": "NPI",
                  "display": "National Provider ID"
                }
              ],
              "text": "National Provider ID"
            },
            "system": "http://hl7.org/fhir/sid/us-npi",
            "value": "1962489641"
          },
          {
            "use": "official",
            "system": "http://hl7.org/fhir/sid/us-npi",
            "value": "1962489641"
          }
        ],
        "active": true,
        "type": [
          {
            "coding": [
              {
                "system": "http://terminology.hl7.org/CodeSystem/organization-type",
                "code": "prov",
                "display": "Healthcare Provider"
              }
            ],
            "text": "Healthcare Provider"
          }
        ],
        "name": "Care Medical, A California Corporation",
        "telecom": [
          {
            "system": "phone",
            "value": "5597419205"
          },
          {
            "system": "phone",
            "value": "5597419205"
          }
        ],
        "address": [
          {
            "line": [
              "1840 S CENTRAL ST"
            ],
            "city": "Visalia",
            "state": "California",
            "postalCode": "53342",
            "country": "United States"
          },
          {
            "line": [
              "1840 S CENTRAL ST"
            ],
            "city": "Visalia",
            "state": "California",
            "postalCode": "53342",
            "country": "US"
          }
        ],
        "contact": [
          {
            "name": {
              "use": "official",
              "family": "Hill",
              "given": [
                "Robert"
              ]
            },
            "telecom": [
              {
                "system": "phone",
                "value": "6332634122"
              }
            ],
            "address": {
              "country": "United States"
            }
          },
          {
            "name": {
              "family": "Hill",
              "given": [
                "Robert"
              ]
            }
          }
        ]
      }
    },
    {
      "fullUrl": "https://pd.mettles.com/ehrfhir/Condition/condition-4",
      "resource": {
        "resourceType": "Condition",
        "id": "condition-4",
        "clinicalStatus": {
          "coding": [
            {
              "system": "http://terminology.hl7.org/CodeSystem/condition-clinical",
              "code": "active",
              "display": "Active"
            }
          ],
          "text": "Active"
        },
        "verificationStatus": {
          "coding": [
            {
              "system": "http://terminology.hl7.org/CodeSystem/condition-ver-status",
              "code": "confirmed",
              "display": "Confirmed"
            }
          ],
          "text": "Confirmed"
        },
        "severity": {
          "coding": [
            {
              "system": "http://snomed.info/sct",
              "code": "6736007",
              "display": "6736007"
            }
          ],
          "text": "6736007"
        },
        "code": {
          "coding": [
            {
              "system": "http://hl7.org/fhir/sid/icd-10-cm",
              "code": "I20.9"
            }
          ]
        },
        "subject": {
          "reference": "Patient/patient-8"
        },
        "encounter": {
          "reference": "Encounter/encounter-4"
        },
        "onsetDateTime": "2020-07-07T12:56:33",
        "recorder": {
          "reference": "Practitioner/practitioner-1"
        }
      }
    },
    {
      "fullUrl": "https://pd.mettles.com/ehrfhir/Condition/condition-5",
      "resource": {
        "resourceType": "Condition",
        "id": "condition-5",
        "clinicalStatus": {
          "coding": [
            {
              "system": "http://terminology.hl7.org/CodeSystem/condition-clinical",
              "code": "active",
              "display": "Active"
            }
          ],
          "text": "Active"
        },
        "verificationStatus": {
          "coding": [
            {
              "system": "http://terminology.hl7.org/CodeSystem/condition-ver-status",
              "code": "unconfirmed",
              "display": "Unconfirmed"
            }
          ],
          "text": "Unconfirmed"
        },
        "severity": {
          "coding": [
            {
              "system": "http://snomed.info/sct",
              "code": "255604002",
              "display": "255604002"
            }
          ],
          "text": "255604002"
        },
        "code": {
          "coding": [
            {
              "system": "http://hl7.org/fhir/sid/icd-10-cm",
              "code": "I25.9",
              "display": "Chronic ischemic heart disease, unspecified"
            }
          ],
          "text": "Chronic ischemic heart disease, unspecified"
        },
        "subject": {
          "reference": "Patient/patient-8"
        },
        "encounter": {
          "reference": "Encounter/encounter-4"
        },
        "onsetDateTime": "2020-07-07T12:58:24"
      }
    },
    {
      "fullUrl": "https://pd.mettles.com/ehrfhir/Condition/condition-6",
      "resource": {
        "resourceType": "Condition",
        "id": "condition-6",
        "clinicalStatus": {
          "coding": [
            {
              "system": "http://terminology.hl7.org/CodeSystem/condition-clinical",
              "code": "active",
              "display": "Active"
            }
          ],
          "text": "Active"
        },
        "verificationStatus": {
          "coding": [
            {
              "system": "http://terminology.hl7.org/CodeSystem/condition-ver-status",
              "code": "unconfirmed",
              "display": "Unconfirmed"
            }
          ],
          "text": "Unconfirmed"
        },
        "severity": {
          "coding": [
            {
              "system": "http://snomed.info/sct",
              "code": "6736007",
              "display": "6736007"
            }
          ],
          "text": "6736007"
        },
        "code": {
          "coding": [
            {
              "system": "http://hl7.org/fhir/sid/icd-10-cm",
              "code": "R06.02",
              "display": "Shortness of breath"
            }
          ],
          "text": "Shortness of breath"
        },
        "subject": {
          "reference": "Patient/patient-8"
        },
        "encounter": {
          "reference": "Encounter/encounter-4"
        },
        "onsetDateTime": "2020-07-10T12:59:29",
        "asserter": {
          "reference": "Patient/patient-8"
        }
      }
    },
    {
      "fullUrl": "https://pd.mettles.com/ehrfhir/Condition/condition-7",
      "resource": {
        "resourceType": "Condition",
        "id": "condition-7",
        "clinicalStatus": {
          "coding": [
            {
              "system": "http://terminology.hl7.org/CodeSystem/condition-clinical",
              "code": "active",
              "display": "Active"
            }
          ],
          "text": "Active"
        },
        "verificationStatus": {
          "coding": [
            {
              "system": "http://terminology.hl7.org/CodeSystem/condition-ver-status",
              "code": "unconfirmed",
              "display": "Unconfirmed"
            }
          ],
          "text": "Unconfirmed"
        },
        "severity": {
          "coding": [
            {
              "system": "http://snomed.info/sct",
              "code": "6736007",
              "display": "6736007"
            }
          ],
          "text": "6736007"
        },
        "code": {
          "coding": [
            {
              "system": "http://hl7.org/fhir/sid/icd-10-cm",
              "code": "R07.9",
              "display": "Chest pain, unspecified"
            }
          ],
          "text": "Chest pain, unspecified"
        },
        "subject": {
          "reference": "Patient/patient-8"
        },
        "encounter": {
          "reference": "Encounter/encounter-4"
        },
        "onsetDateTime": "2020-07-14T15:34:25"
      }
    },
    {
      "fullUrl": "https://pd.mettles.com/ehrfhir/Condition/condition-8",
      "resource": {
        "resourceType": "Condition",
        "id": "condition-8",
        "clinicalStatus": {
          "coding": [
            {
              "system": "http://terminology.hl7.org/CodeSystem/condition-clinical",
              "code": "active",
              "display": "Active"
            }
          ],
          "text": "Active"
        },
        "verificationStatus": {
          "coding": [
            {
              "system": "http://terminology.hl7.org/CodeSystem/condition-ver-status",
              "code": "unconfirmed",
              "display": "Unconfirmed"
            }
          ],
          "text": "Unconfirmed"
        },
        "severity": {
          "coding": [
            {
              "system": "http://snomed.info/sct",
              "code": "6736007",
              "display": "6736007"
            }
          ],
          "text": "6736007"
        },
        "code": {
          "coding": [
            {
              "system": "http://hl7.org/fhir/sid/icd-10-cm",
              "code": "R68.84",
              "display": "Jaw pain"
            }
          ],
          "text": "Jaw pain"
        },
        "subject": {
          "reference": "Patient/patient-8"
        },
        "encounter": {
          "reference": "Encounter/encounter-4"
        },
        "onsetDateTime": "2020-07-07T15:35:12"
      }
    },
    {
      "fullUrl": "https://pd.mettles.com/ehrfhir/Condition/condition-9",
      "resource": {
        "resourceType": "Condition",
        "id": "condition-9",
        "clinicalStatus": {
          "coding": [
            {
              "system": "http://terminology.hl7.org/CodeSystem/condition-clinical",
              "code": "active",
              "display": "Active"
            }
          ],
          "text": "Active"
        },
        "verificationStatus": {
          "coding": [
            {
              "system": "http://terminology.hl7.org/CodeSystem/condition-ver-status",
              "code": "unconfirmed",
              "display": "Unconfirmed"
            }
          ],
          "text": "Unconfirmed"
        },
        "severity": {
          "coding": [
            {
              "system": "http://snomed.info/sct",
              "code": "24484000",
              "display": "24484000"
            }
          ],
          "text": "24484000"
        },
        "code": {
          "coding": [
            {
              "system": "http://hl7.org/fhir/sid/icd-10-cm",
              "code": "M79.603",
              "display": "Pain in arm, unspecified"
            }
          ],
          "text": "Pain in arm, unspecified"
        },
        "subject": {
          "reference": "Patient/patient-8"
        },
        "encounter": {
          "reference": "Encounter/encounter-4"
        },
        "onsetDateTime": "2020-07-07T15:52:04"
      }
    },
    {
      "fullUrl": "https://pd.mettles.com/ehrfhir/Condition/condition-10",
      "resource": {
        "resourceType": "Condition",
        "id": "condition-10",
        "clinicalStatus": {
          "coding": [
            {
              "system": "http://terminology.hl7.org/CodeSystem/condition-clinical",
              "code": "active",
              "display": "Active"
            }
          ],
          "text": "Active"
        },
        "verificationStatus": {
          "coding": [
            {
              "system": "http://terminology.hl7.org/CodeSystem/condition-ver-status",
              "code": "confirmed",
              "display": "Confirmed"
            }
          ],
          "text": "Confirmed"
        },
        "severity": {
          "coding": [
            {
              "system": "http://snomed.info/sct",
              "code": "6736007",
              "display": "6736007"
            }
          ],
          "text": "6736007"
        },
        "code": {
          "coding": [
            {
              "system": "http://hl7.org/fhir/sid/icd-10-cm",
              "code": "I27.20",
              "display": "Pulmonary hypertension, unspecified"
            }
          ],
          "text": "Pulmonary hypertension, unspecified"
        },
        "subject": {
          "reference": "Patient/patient-8"
        },
        "encounter": {
          "reference": "Encounter/encounter-4"
        },
        "onsetDateTime": "2020-07-14T12:09:19"
      }
    },
    {
      "fullUrl": "https://pd.mettles.com/ehrfhir/Observation/observation-7",
      "resource": {
        "resourceType": "Observation",
        "id": "observation-7",
        "status": "final",
        "code": {
          "coding": [
            {
              "system": "http://loinc.org",
              "code": "34534-8",
              "display": "EKG 12 channel panel"
            }
          ],
          "text": "EKG 12 channel panel"
        },
        "subject": {
          "reference": "Patient/patient-8"
        },
        "encounter": {
          "reference": "Encounter/encounter-4"
        },
        "effectiveDateTime": "2020-07-15T15:40:11",
        "valueString": "Abnormal"
      }
    },
    {
      "fullUrl": "https://pd.mettles.com/ehrfhir/Procedure/procedure-2",
      "resource": {
        "resourceType": "Procedure",
        "id": "procedure-2",
        "status": "completed",
        "code": {
          "coding": [
            {
              "code": "315053001",
              "display": "Statin prophylaxis (procedure)"
            }
          ],
          "text": "Statin prophylaxis (procedure)"
        },
        "subject": {
          "reference": "Patient/patient-8"
        },
        "encounter": {
          "reference": "Encounter/encounter-4"
        },
        "performedDateTime": "2020-02-11T12:22:15"
      }
    },
    {
      "fullUrl": "https://pd.mettles.com/ehrfhir/Observation/observation-17",
      "resource": {
        "resourceType": "Observation",
        "id": "observation-17",
        "status": "final",
        "code": {
          "coding": [
            {
              "system": "http://loinc.org",
              "code": "85353-1",
              "display": "Vital signs, weight, height, head circumference, oxygen saturation and BMI panel"
            }
          ],
          "text": "Vital signs, weight, height, head circumference, oxygen saturation and BMI panel"
        },
        "subject": {
          "reference": "Patient/patient-8"
        },
        "encounter": {
          "reference": "Encounter/encounter-4"
        },
        "effectiveDateTime": "2020-07-07T12:58:25"
      }
    },
    {
      "fullUrl": "https://pd.mettles.com/ehrfhir/QuestionnaireResponse/response1",
      "resource": {
        "resourceType": "QuestionnaireResponse",
        "id": "response1",
        "authored": "2020-07-29",
        "status": "in-progress",
        "item": [
          {
            "linkId": "1",
            "text": "Diagnosis/Procedure",
            "item": [
              {
                "linkId": "1.1",
                "text": "Relevant Diagnosis",
                "answer": [
                  {
                    "valueString": "Pulmonary hypertension, unspecified"
                  }
                ]
              },
              {
                "linkId": "1.2",
                "text": "Details of Prior Imaging studies performed",
                "answer": [
                  {
                    "valueString": "EKG 12 channel panel"
                  }
                ]
              },
              {
                "linkId": "1.3",
                "text": "Date of Prior Imaging Performed",
                "answer": [
                  {
                    "valueDateTime": "2020-07-15T15:40:11"
                  }
                ]
              },
              {
                "linkId": "1.4",
                "text": "Assessment of any Cardiac Disease",
                "answer": [
                  {
                    "valueString": "Chronic ischemic heart disease, unspecified"
                  }
                ]
              },
              {
                "linkId": "1.5",
                "text": "Date of Cardiac Disease Assessment Performed",
                "answer": [
                  {
                    "valueDateTime": "2020-07-07T12:58:24"
                  }
                ]
              },
              {
                "linkId": "1.6",
                "text": "Details of Prior Treatment Performed",
                "answer": [
                  {
                    "valueString": "Statin prophylaxis (procedure)"
                  }
                ]
              },
              {
                "linkId": "1.7",
                "text": "Date of Treatment Performed",
                "answer": [
                  {
                    "valueDateTime": "2020-02-11T12:22:15"
                  }
                ]
              }
            ]
          },
          {
            "linkId": "2",
            "text": "Symptoms for assessment",
            "item": [
              {
                "linkId": "2.1",
                "text": "Is there chest pain ?",
                "answer": [
                  {
                    "valueBoolean": true
                  }
                ]
              },
              {
                "linkId": "2.2",
                "text": "Date of Onset of Chest Pain",
                "answer": [
                  {
                    "valueDateTime": "2020-07-14T15:34:25"
                  }
                ]
              },
              {
                "linkId": "2.3",
                "text": "Is there arm pain?",
                "answer": [
                  {
                    "valueBoolean": true
                  }
                ]
              },
              {
                "linkId": "2.4",
                "text": "Date of Onset of Arm Pain",
                "answer": [
                  {
                    "valueDateTime": "2020-07-07T15:52:04"
                  }
                ]
              },
              {
                "linkId": "2.5",
                "text": "Is there jaw pain?",
                "answer": [
                  {
                    "valueBoolean": true
                  }
                ]
              },
              {
                "linkId": "2.6",
                "text": "Date of Onset of Jaw Pain",
                "answer": [
                  {
                    "valueDateTime": "2020-07-07T15:35:12"
                  }
                ]
              },
              {
                "linkId": "2.7",
                "text": "Is the pain relieved with nitroglycerin or rest?",
                "answer": [
                  {
                    "valueBoolean": true
                  }
                ]
              },
              {
                "linkId": "2.8",
                "text": "Is there shortness of breath?",
                "answer": [
                  {
                    "valueBoolean": true
                  }
                ]
              },
              {
                "linkId": "2.9",
                "text": "Date of Onset of Shortness of Breath",
                "answer": [
                  {
                    "valueDateTime": "2020-07-10T12:59:29"
                  }
                ]
              }
            ]
          },
          {
            "linkId": "3",
            "text": "Clinical Assessment",
            "item": [
              {
                "linkId": "3.1",
                "text": "Is a decision made to perform cardiac catheterization or other angiography ?",
                "answer": [
                  {
                    "valueBoolean": false
                  }
                ]
              },
              {
                "linkId": "3.2",
                "text": "Is there substernal chest discomfort (generally described as pressure,heaviness, burning, or tightness) ?",
                "answer": [
                  {
                    "valueBoolean": true
                  }
                ]
              },
              {
                "linkId": "3.3",
                "text": "Is the chest pain  brought on by exertion or emotional stress and relieved by rest?",
                "answer": [
                  {
                    "valueBoolean": true
                  }
                ]
              },
              {
                "linkId": "3.4",
                "text": "Does the pain radiate to the left arm or jaw ?",
                "answer": [
                  {
                    "valueBoolean": true
                  }
                ]
              }
            ]
          },
          {
            "linkId": "4",
            "text": "Assessment of Functional Capacity",
            "item": [
              {
                "linkId": "4.1",
                "text": "Can walk four blocks without stopping ?",
                "answer": [
                  {
                    "valueBoolean": true
                  }
                ]
              },
              {
                "linkId": "4.2",
                "text": "Can walk up a hill ?",
                "answer": [
                  {
                    "valueBoolean": false
                  }
                ]
              },
              {
                "linkId": "4.3",
                "text": "Can climb one flights of stairs without stopping ?",
                "answer": [
                  {
                    "valueBoolean": true
                  }
                ]
              },
              {
                "linkId": "4.4",
                "text": "Can perform heavy work around the house ?",
                "answer": [
                  {
                    "valueBoolean": true
                  }
                ]
              }
            ]
          }
        ],
        "questionnaire": "https://fhir-dev.mettles.com/interop/fhir/Questionnaire/questionnaire-unitedhealthcare-stressechocardiography"
      }
    },
    {
      "fullUrl": "https://pd.mettles.com/ehrfhir/ServiceRequest/servicerequest-4",
      "resource": {
        "resourceType": "ServiceRequest",
        "id": "servicerequest-4",
        "status": "active",
        "intent": "order",
        "priority": "routine",
        "code": {
          "coding": [
            {
              "code": "93350",
              "system": "http://www.ama-assn.org/go/cpt",
              "display": "Echocardiography, transthoracic, real-time with image documentation (2D), includes M-mode recording, when performed, during rest and cardiovascular stress test using treadmill, bicycle exercise and/or pharmacologically induced stress, with interpretation and report"
            }
          ],
          "text": "Echocardiography, transthoracic, real-time with image documentation (2D), includes M-mode recording, when performed, during rest and cardiovascular stress test using treadmill, bicycle exercise and/or pharmacologically induced stress, with interpretation and report"
        },
        "subject": {
          "reference": "Patient/patient-8"
        },
        "encounter": {
          "reference": "Encounter/encounter-4"
        },
        "authoredOn": "2020-07-21",
        "requester": {
          "reference": "Organization/organization-1"
        },
        "performer": [
          {
            "reference": "Practitioner/practitioner-1"
          }
        ],
        "insurance": [
          {
            "reference": "Coverage/coverage-5"
          }
        ]
      }
    }
  ],
  "type": "collection",
  "identifier": {
    "system": "http://identifiers.mettles.com",
    "value": "3Q264SXWVQTWDA5J"
  }
}
